#NOTE: MSDs should be divided by the total number of molecules (N).
#Time	MSD__wat_wat	MSD__wat_Cl	MSD__wat_K	MSD__Cl_Cl	MSD__Cl_K	MSD__K_K	
 1000 34.7176 -7.23189 -9.1695 4.05741 -0.420089 4.61042
 2000 58.8868 -12.0484 -15.7748 6.73004 -0.658537 7.86429
 3000 82.4539 -16.7353 -22.2422 9.33546 -0.891771 11.0516
 4000 105.939 -21.4566 -28.656 11.9491 -1.11237 14.2021
 5000 129.347 -26.1306 -35.0856 14.5399 -1.33338 17.3603
 6000 152.634 -30.7973 -41.4843 17.1095 -1.53466 20.4885
 7000 175.761 -35.4305 -47.8458 19.6722 -1.74345 23.6053
 8000 198.93 -40.0363 -54.2593 22.2136 -1.94342 26.7377
 9000 221.934 -44.6208 -60.6277 24.7527 -2.14897 29.8558
 10000 244.773 -49.1925 -66.939 27.2853 -2.35333 32.947
 11000 267.693 -53.7515 -73.305 29.807 -2.55305 36.0599
 12000 290.538 -58.2903 -79.6588 32.3282 -2.76013 39.1732
 13000 313.235 -62.7755 -86.0011 34.8346 -2.9749 42.287
 14000 335.929 -67.2566 -92.3492 37.3381 -3.18854 45.4027
 15000 358.555 -71.7187 -98.6841 39.8216 -3.39281 48.5032
 16000 381.243 -76.176 -105.055 42.3112 -3.60472 51.6277
 17000 403.986 -80.6404 -111.448 44.7832 -3.79555 54.742
 18000 426.552 -85.0453 -117.817 47.2484 -4.00764 57.866
 19000 449.138 -89.4782 -124.176 49.7153 -4.20593 60.9728
 20000 471.706 -93.925 -130.515 52.1875 -4.40328 64.0694
 20000 474.658 -94.5325 -131.35 52.2193 -4.17094 64.27
 40000 916.189 -180.496 -256.521 100.637 -8.54498 125.872
 60000 1359.41 -269.728 -379.683 149.668 -11.912 185.638
 80000 1797.1 -356.45 -502.644 197.666 -15.5117 245.561
 100000 2238.08 -443.533 -626.784 245.99 -19.2204 306.097
 120000 2679.81 -530.951 -751.104 294.388 -22.7776 366.585
 140000 3115.04 -617.443 -873.32 342.526 -26.5501 426.342
 160000 3556.57 -705.77 -996.624 391.23 -30.059 486.357
 180000 3994.96 -792.658 -1119.96 440.344 -34.5147 547.243
 200000 4436.74 -879.771 -1244.53 489.185 -38.6514 608.386
 220000 4872.45 -965.256 -1367.74 537.139 -42.7386 668.84
 240000 5311.96 -1051.3 -1492.08 585.56 -46.9891 729.906
 260000 5752.22 -1138.68 -1615.83 634.907 -51.4275 790.961
 280000 6204.87 -1229.43 -1741.85 684.773 -54.8531 852.048
 300000 6655.98 -1320.53 -1867.17 734.701 -58.1249 912.764
 320000 7116.11 -1414.63 -1993.96 785.287 -60.5764 973.399
 340000 7578.13 -1508.53 -2121.91 836.534 -63.7132 1035.23
 360000 8048.05 -1605.67 -2250.32 888.737 -66.3231 1096.79
 380000 8518.28 -1703.31 -2378.36 940.21 -68.0039 1157.27
 400000 8978.39 -1799.26 -2503.27 991.547 -70.3883 1216.97
 400000 9028.08 -1827.59 -2499.92 1011 -74.9557 1219.31
 800000 18462.8 -3872.55 -4989.97 2045.59 -71.4339 2362.7
 1.2e+06 28811.2 -5928.63 -7894.68 3091.14 -72.1786 3702.19
 1.6e+06 39483 -7986.2 -10948.7 4129.53 -65.2068 5103.85
 2e+06 50140.7 -9996.35 -14035.6 5143.84 -58.7203 6519.8
 2.4e+06 60875.6 -11949.5 -17207.8 6160.69 -81.4733 8001.25
 2.8e+06 70844.8 -13678.2 -20233.2 7099.58 -137.162 9446.22
 3.2e+06 81925.9 -15573.9 -23621.3 8044.11 -120.546 10993.3
 3.6e+06 93664 -17578.9 -27211.2 9013.4 -75.5884 12606.3
 4e+06 106092 -19791.2 -30930.4 10000.8 48.384 14206.9
 4.4e+06 118314 -21899.1 -34648.9 10921.6 184.954 15795.6
 4.8e+06 129937 -23833.5 -38251.2 11759.8 316.535 17336.3
 5.2e+06 141631 -25741.7 -41908.8 12593.1 440.385 18909
 5.6e+06 153263 -27752.1 -45447.8 13496.3 548.035 20442.8
 6e+06 164726 -29871 -48808.9 14399.3 705.154 21849.4
 6.4e+06 175233 -31886.3 -51821 15290.6 825.813 23126.9
 6.8e+06 186058 -34171.2 -54737.8 16266.6 993.162 24319.8
 7.2e+06 196309 -36197.7 -57623.8 17267.8 1019.33 25626
 7.6e+06 206437 -38328.4 -60359.7 18256.8 1104.75 26809.1
 8e+06 216737 -40437.5 -63191.2 19242.8 1182.03 28043.2
 8e+06 247835 -44700.5 -73661.8 19122.3 3265.3 30973.3
 1.6e+07 412415 -87921.9 -110328 39072.1 5092.59 46220.6
 2.4e+07 571555 -124355 -150619 58078.9 4643.11 65194.8
 3.2e+07 690595 -157795 -175093 72112.8 7332.8 74001.6
 4e+07 781678 -179734 -197187 79159 11047.6 80826.5
 4.8e+07 825093 -195150 -203220 82037.7 15545.8 79526.4
 5.6e+07 780484 -178327 -197860 78027.8 11416.9 80785
 6.4e+07 720628 -162013 -185030 76346.9 5432.9 80271.8
 7.2e+07 790902 -187407 -194366 87147.4 7336.25 82843.7
 8e+07 862175 -197413 -218152 92638.3 6982.57 94118.6
 8.8e+07 1.02748e+06 -233630 -261478 97025.1 19659.6 102617
 9.6e+07 1.08974e+06 -228815 -294549 90815.3 23072.3 114768
 1.04e+08 1.1701e+06 -243059 -318628 92972.9 27689.9 121650
 1.12e+08 1.38035e+06 -272974 -388372 94352.3 40234.2 142398
 1.2e+08 1.35647e+06 -252931 -395464 91561.4 33506.2 151750
 1.28e+08 1.39085e+06 -220995 -440319 89019.3 21134.2 183629
 1.36e+08 1.22826e+06 -208290 -376986 96407.6 8577.68 165865
 1.44e+08 1.31967e+06 -234303 -395486 115534 3213.37 179245
 1.52e+08 1.37045e+06 -229925 -422887 129311 -11282.7 205016
 1.6e+08 1.31341e+06 -195061 -428322 126445 -24706.8 219704
 1.6e+08 1.07262e+06 -274597 -244915 99850.6 35991.1 80060.6
